{
	"resourceType": "Bundle",
	"id": "1540337338319",
	"type": "transaction",
	"entry": [
		{
			"fullUrl": "Patient/jQF7uqXsvkepi.carespan.clinic",
			"resource": {
				"resourceType": "Patient",
				"id": "jQF7uqXsvkepi.carespan.clinic",
				"meta": {
					"profile": [
						"http://pchalliance.org/phdfhir/StructureDefinition/phdPatient"
					]
				},
				"identifier": [
					{
						"type": {
							"coding": [
								{
									"system": "http://terminology.hl7.org/CodeSystem/v2-0203",
									"code": "U",
									"display": "Unknown"
								}
							]
						},
						"system": "urn:dns:carespan.clinic",
						"value": "jQF7uqXsvkepi"
					}
				],
				"name": [
					{
						"family": "Reinhold",
						"given": [
							"Barry"
						]
					}
				]
			},
			"request": {
				"method": "PUT",
				"url": "Patient/jQF7uqXsvkepi.carespan.clinic"
			}
		},
		{
			"fullUrl": "Device/4c4e49123456ffff.000000000000",
			"resource": {
				"resourceType": "Device",
				"id": "4c4e49123456ffff.000000000000",
				"meta": {
					"profile": [
						"http://pchalliance.org/phdfhir/StructureDefinition/phgDevice"
					]
				},
				"identifier": [
					{
						"use": "official",
						"system": "urn:oid:1.2.840.10004.1.1.1.0.0.1.0.0.1.2680",
						"value": "4c-4e-49-12-34-56-ff-ff",
						"assigner": {
							"display": "EUI-64"
						}
					}
				],
				"manufacturer": "Lamprey Networks, Inc",
				"type": {
					"coding": [
						{
							"system": "urn:iso:std:iso:11073:10101",
							"code": "531981",
							"display": "MDC_MOC_VMS_MDS_AHD"
						}
					]
				},
				"version": [
					{
						"type": {
							"coding": [
								{
									"system": "urn:iso:std:iso:11073:10101",
									"code": "532352",
									"display": "MDC_REG_CERT_DATA_CONTINUA_VERSION: Continua version"
								}
							]
						},
						"value": "6.0"
					}
				],
				"property": [
					{
						"type": {
							"coding": [
								{
									"system": "urn:iso:std:iso:11073:10101",
									"code": "68220",
									"display": "MDC_TIME_SYNC_PROTOCOL: Time synchronization protocol"
								}
							]
						},
						"valueCode": [
							{
								"coding": [
									{
										"system": "urn:iso:std:iso:11073:10101",
										"code": "532226",
										"display": "MDC_TIME_SYNC_NTPV4: "
									}
								]
							}
						]
					},
					{
						"type": {
							"coding": [
								{
									"system": "urn:iso:std:iso:11073:10101",
									"code": "532353",
									"display": "MDC_REG_CERT_DATA_CONTINUA_CERT_DEV_LIST: certified device list as transport-specialization combo"
								}
							]
						}
					},
					{
						"type": {
							"coding": [
								{
									"system": "urn:iso:std:iso:11073:10101",
									"code": "532355",
									"display": "MDC_REG_CERT_DATA_CONTINUA_AHD_CERT_LIST: certified Upload classes"
								}
							]
						},
						"valueCode": [
							{
								"coding": [
									{
										"system": "http://hl7.org/fhir/uv/phd/CodeSystem/ContinuaHFS",
										"code": "0"
									}
								]
							},
							{
								"coding": [
									{
										"system": "http://hl7.org/fhir/uv/phd/CodeSystem/ContinuaHFS",
										"code": "7"
									}
								]
							}
						]
					},
					{
						"type": {
							"coding": [
								{
									"system": "http://hl7.org/fhir/uv/phd/CodeSystem/ASN1ToHL7",
									"code": "532354.0",
									"display": "regulation-status"
								}
							]
						},
						"valueCode": [
							{
								"coding": [
									{
										"system": "http://terminology.hl7.org/CodeSystem/v2-0136",
										"code": "Y",
										"display": "Device is not regulated"
									}
								]
							}
						]
					}
				]
			},
			"request": {
				"method": "PUT",
				"url": "Device/4c4e49123456ffff.000000000000"
			}
		},
		{
			"fullUrl": "Device/74e8fffeff051c00.001C05FFE874",
			"resource": {
				"resourceType": "Device",
				"id": "74e8fffeff051c00.001C05FFE874",
				"meta": {
					"profile": [
						"http://pchalliance.org/phdfhir/StructureDefinition/phdParentDevice"
					]
				},
				"identifier": [
					{
						"use": "official",
						"system": "urn:oid:1.2.840.10004.1.1.1.0.0.1.0.0.1.2680",
						"value": "74-e8-ff-fe-ff-05-1c-00",
						"assigner": {
							"display": "EUI-64"
						}
					},
					{
						"system": "urn:oid:1.2.840.10004.1.1.1.0.0.1.0.0.1.2680",
						"value": "00-1C-05-FF-E8-74",
						"assigner": {
							"display": "EUI-48"
						}
					}
				],
				"manufacturer": "Nonin_Medical_Inc.",
				"serialNumber": "501900083",
				"modelNumber": "Model 3230",
				"type": {
					"coding": [
						{
							"system": "urn:iso:std:iso:11073:10101",
							"code": "65573",
							"display": "MDC_MOC_VMS_MDS_SIMP"
						}
					]
				},
				"specialization": [
					{
						"systemType": {
							"coding": [
								{
									"system": "urn:iso:std:iso:11073:10101",
									"code": "528388",
									"display": "Pulse Oximeter"
								}
							]
						}
					}
				],
				"version": [
					{
						"type": {
							"coding": [
								{
									"system": "urn:iso:std:iso:11073:10101",
									"code": "531976",
									"display": "MDC_ID_PROD_SPEC_FW: Firmware revision"
								}
							]
						},
						"value": "r2.1"
					},
					{
						"type": {
							"coding": [
								{
									"system": "urn:iso:std:iso:11073:10101",
									"code": "531975",
									"display": "MDC_ID_PROD_SPEC_SW: Software revision"
								}
							]
						},
						"value": "r1.5 9.7"
					},
					{
						"type": {
							"coding": [
								{
									"system": "urn:iso:std:iso:11073:10101",
									"code": "531974",
									"display": "MDC_ID_PROD_SPEC_HW: Hardware revision"
								}
							]
						},
						"value": "r1.0"
					},
					{
						"type": {
							"coding": [
								{
									"system": "urn:iso:std:iso:11073:10101",
									"code": "532352",
									"display": "MDC_REG_CERT_DATA_CONTINUA_VERSION: Continua version"
								}
							]
						},
						"value": "6.0"
					}
				],
				"property": [
					{
						"type": {
							"coding": [
								{
									"system": "urn:iso:std:iso:11073:10101",
									"code": "532353",
									"display": "MDC_REG_CERT_DATA_CONTINUA_CERT_DEV_LIST: certified device list as transport-specialization combo"
								}
							]
						},
						"valueCode": [
							{
								"coding": [
									{
										"system": "http://hl7.org/fhir/uv/phd/CodeSystem/ContinuaPAN",
										"code": "32772"
									}
								]
							}
						]
					},
					{
						"type": {
							"coding": [
								{
									"system": "http://hl7.org/fhir/uv/phd/CodeSystem/ASN1ToHL7",
									"code": "532354.0",
									"display": "regulation-status"
								}
							]
						},
						"valueCode": [
							{
								"coding": [
									{
										"system": "http://terminology.hl7.org/CodeSystem/v2-0136",
										"code": "N",
										"display": "Device is Regulated"
									}
								]
							}
						]
					},
					{
						"type": {
							"coding": [
								{
									"system": "urn:iso:std:iso:11073:10101",
									"code": "68220",
									"display": "MDC_TIME_SYNC_PROTOCOL: Time synchronization protocol"
								}
							]
						},
						"valueCode": [
							{
								"coding": [
									{
										"system": "urn:iso:std:iso:11073:10101",
										"code": "532224",
										"display": "MDC_TIME_SYNC_NONE: "
									}
								]
							}
						]
					}
				],
				"parent": {
					"reference": "Device/4c4e49123456ffff.000000000000"
				}
			},
			"request": {
				"method": "PUT",
				"url": "Device/74e8fffeff051c00.001C05FFE874"
			}
		},
		{
			"fullUrl": "urn:oid:1.0.0.1",
			"resource": {
				"resourceType": "Observation",
				"meta": {
					"profile": [
						"http://pchalliance.org/phdfhir/StructureDefinition/phdNumericObservation"
					]
				},
				"extension": [
					{
						"url": "http://hl7.org/fhir/StructureDefinition/observation-gatewayDevice",
						"valueReference": {
							"reference": "Device/4c4e49123456ffff.000000000000"
						}
					}
				],
				"status": "final",
				"code": {
					"coding": [
						{
							"system": "urn:iso:std:iso:11073:10101",
							"code": "67996",
							"display": "MDC_ATTR_VAL_BATT_CHARGE"
						}
					]
				},
				"subject": {
					"reference": "Patient/jQF7uqXsvkepi.carespan.clinic"
				},
				"effectiveDateTime": "2018-10-23T19:27:52-04:00",
				"valueQuantity": {
					"value": 100,
					"system": "http://unitsofmeasure.org",
					"code": "%"
				},
				"device": {
					"reference": "Device/74e8fffeff051c00.001C05FFE874"
				}
			},
			"request": {
				"method": "POST",
				"url": "Observation"
			}
		},
		{
			"fullUrl": "urn:oid:1.0.0.2",
			"resource": {
				"resourceType": "Observation",
				"meta": {
					"profile": [
						"http://pchalliance.org/phdfhir/StructureDefinition/phdNumericObservation"
					]
				},
				"extension": [
					{
						"url": "http://hl7.org/fhir/StructureDefinition/observation-gatewayDevice",
						"valueReference": {
							"reference": "Device/4c4e49123456ffff.000000000000"
						}
					}
				],
				"status": "final",
				"code": {
					"coding": [
						{
							"system": "urn:iso:std:iso:11073:10101",
							"code": "150320",
							"display": "MDC_SAT_O2_QUAL"
						}
					]
				},
				"subject": {
					"reference": "Patient/jQF7uqXsvkepi.carespan.clinic"
				},
				"effectiveDateTime": "2018-10-23T19:27:56-04:00",
				"valueQuantity": {
					"value": 1.06,
					"system": "http://unitsofmeasure.org",
					"code": "%"
				},
				"device": {
					"reference": "Device/74e8fffeff051c00.001C05FFE874"
				},
				"derivedFrom": [
					{
						"reference": "urn:oid:3.14159.20181023192752"
					}
				],
				"component": [
					{
						"code": {
							"coding": [
								{
									"system": "urn:iso:std:iso:11073:10101",
									"code": "68193",
									"display": "MDC_ATTR_SUPPLEMENTAL_TYPES"
								}
							]
						},
						"valueCodeableConcept": {
							"coding": [
								{
									"system": "urn:iso:std:iso:11073:10101",
									"code": "150588",
									"display": "MDC_MODALITY_SPOT"
								}
							]
						}
					}
				]
			},
			"request": {
				"method": "POST",
				"url": "Observation"
			}
		},
		{
			"fullUrl": "urn:oid:1.0.0.3",
			"resource": {
				"resourceType": "Observation",
				"meta": {
					"profile": [
						"http://pchalliance.org/phdfhir/StructureDefinition/phdNumericObservation"
					]
				},
				"extension": [
					{
						"url": "http://hl7.org/fhir/StructureDefinition/observation-gatewayDevice",
						"valueReference": {
							"reference": "Device/4c4e49123456ffff.000000000000"
						}
					}
				],
				"status": "final",
				"category": [
					{
						"coding": [
							{
								"system": "http://hl7.org/fhir/ValueSet/observation-category",
								"code": "vital-signs",
								"display": "Vital Signs"
							}
						]
					}
				],
				"code": {
					"coding": [
						{
							"system": "urn:iso:std:iso:11073:10101",
							"code": "149530",
							"display": "MDC_PULS_OXIM_PULS_RATE"
						},
						{
							"system": "http://loinc.org",
							"code": "8867-4",
							"display": "Pulse Oximeter heart rate"
						}
					]
				},
				"subject": {
					"reference": "Patient/jQF7uqXsvkepi.carespan.clinic"
				},
				"effectiveDateTime": "2018-10-23T19:27:56-04:00",
				"valueQuantity": {
					"value": 49.0,
					"system": "http://unitsofmeasure.org",
					"code": "{beat}/min"
				},
				"device": {
					"reference": "Device/74e8fffeff051c00.001C05FFE874"
				},
				"derivedFrom": [
					{
						"reference": "urn:oid:3.14159.20181023192752"
					}
				],
				"component": [
					{
						"code": {
							"coding": [
								{
									"system": "urn:iso:std:iso:11073:10101",
									"code": "68193",
									"display": "MDC_ATTR_SUPPLEMENTAL_TYPES"
								}
							]
						},
						"valueCodeableConcept": {
							"coding": [
								{
									"system": "urn:iso:std:iso:11073:10101",
									"code": "150588",
									"display": "MDC_MODALITY_SPOT"
								}
							]
						}
					}
				]
			},
			"request": {
				"method": "POST",
				"url": "Observation"
			}
		},
		{
			"fullUrl": "urn:oid:1.0.0.4",
			"resource": {
				"resourceType": "Observation",
				"meta": {
					"profile": [
						"http://pchalliance.org/phdfhir/StructureDefinition/phdNumericObservation"
					]
				},
				"extension": [
					{
						"url": "http://hl7.org/fhir/StructureDefinition/observation-gatewayDevice",
						"valueReference": {
							"reference": "Device/4c4e49123456ffff.000000000000"
						}
					}
				],
				"status": "final",
				"category": [
					{
						"coding": [
							{
								"system": "http://hl7.org/fhir/ValueSet/observation-category",
								"code": "vital-signs",
								"display": "Vital Signs"
							}
						]
					}
				],
				"code": {
					"coding": [
						{
							"system": "urn:iso:std:iso:11073:10101",
							"code": "150456",
							"display": "MDC_PULS_OXIM_SAT_O2"
						},
						{
							"system": "http://loinc.org",
							"code": "59408-5",
							"display": "Oxygen saturation"
						}
					]
				},
				"subject": {
					"reference": "Patient/jQF7uqXsvkepi.carespan.clinic"
				},
				"effectiveDateTime": "2018-10-23T19:27:56-04:00",
				"valueQuantity": {
					"value": 98.0,
					"system": "http://unitsofmeasure.org",
					"code": "%"
				},
				"device": {
					"reference": "Device/74e8fffeff051c00.001C05FFE874"
				},
				"derivedFrom": [
					{
						"reference": "urn:oid:3.14159.20181023192752"
					}
				],
				"component": [
					{
						"code": {
							"coding": [
								{
									"system": "urn:iso:std:iso:11073:10101",
									"code": "68193",
									"display": "MDC_ATTR_SUPPLEMENTAL_TYPES"
								}
							]
						},
						"valueCodeableConcept": {
							"coding": [
								{
									"system": "urn:iso:std:iso:11073:10101",
									"code": "150588",
									"display": "MDC_MODALITY_SPOT"
								}
							]
						}
					}
				]
			},
			"request": {
				"method": "POST",
				"url": "Observation"
			}
		},
		{
			"fullUrl": "urn:oid:3.14159.20181023192752",
			"resource": {
				"resourceType": "Observation",
				"meta": {
					"profile": [
						"http://pchalliance.org/phdfhir/StructureDefinition/phdCoincidentTimeStampObservation"
					]
				},
				"status": "final",
				"code": {
					"coding": [
						{
							"system": "urn:iso:std:iso:11073:10101",
							"code": "67975",
							"display": "MDC_ATTR_TIME_ABS"
						}
					]
				},
				"subject": {
					"reference": "Patient/jQF7uqXsvkepi.carespan.clinic"
				},
				"effectiveDateTime": "2018-10-23T19:27:52-04:00",
				"valueDateTime": "2018-10-23T19:27:51-04:00",
				"device": {
					"reference": "Device/74e8fffeff051c00.001C05FFE874"
				}
			},
			"request": {
				"method": "POST",
				"url": "Observation"
			}
		}
	]
}
